File: Sample Spectra/FTIR PET.txt
674.992 1.90302 0.765496 0.399475 1.88218 0.50878 -0.0282817 -0.362289 1.84552 0.29802 0.952811 1.7601 4.2303 3.89347 3.32323 0.767742 2.25779 2.68948 3.24102 2.44364 3.22692 1.97776 3.75643 4.14452 3.35571 2.06812 4.00068 3.87551 3.90376 2.61835 3.14132 2.26757 4.11179 3.28581 3.61806 3.23602 2.25668 3.18657 4.57406 2.39856 3.9627 2.77814 5.03405 4.92858 4.73419 5.91745 5.05627 4.03493 4.10898 5.51504 3.89956 6.39114 5.0688 5.80278
706.492 1.99847 0.80109 0.944917 2.00305 0.517821 -0.0251076 -0.181553 1.90974 0.204972 0.917776 1.75082 4.17591 3.84969 3.26938 0.545784 1.96382 2.63116 3.44867 2.59737 3.41266 1.59592 3.80938 4.24469 3.3639 2.08705 4.05959 3.48682 3.60378 2.50011 2.48802 1.83158 3.95855 2.81913 3.15781 2.6464 1.85882 2.55461 4.53759 1.90536 3.72834 2.45592 4.88714 4.9215 4.66222 5.76912 4.90806 3.50664 3.67458 4.93814 3.39231 5.82437 4.77866 5.45069
737.991 1.89035 0.725576 1.51242 1.99453 0.439095 -0.137947 -0.0384441 1.65931 0.125764 0.848014 1.63422 4.51384 4.10284 3.48919 0.415524 1.74235 3.35941 3.89656 2.83312 3.89699 1.3626 3.95372 4.4343 3.54679 2.38428 4.15316 3.29504 3.48735 3.04743 1.99031 1.47823 3.82335 2.42664 2.68579 2.14199 1.37656 1.85482 4.56345 1.2684 3.7952 2.09391 4.80176 4.93615 4.52847 5.32218 4.65226 2.93363 3.03595 4.19764 2.72824 5.5956 4.97125 5.66445
769.491 1.84293 0.622429 0.619555 1.8119 0.331982 -0.228915 -0.45794 1.61188 -0.0215688 0.695358 1.41117 3.86126 3.63996 2.98795 0.25466 1.56768 2.23523 2.77599 2.0305 2.76536 1.12623 3.03468 3.53998 2.70321 1.26568 3.22605 2.68545 2.82817 1.67528 1.63243 0.935551 2.93884 1.92334 2.23402 1.6627 0.718189 1.33793 3.20901 0.626258 2.3033 1.11636 3.53098 3.36807 3.16917 4.22217 3.37255 1.97579 2.0734 3.32173 1.76984 4.21491 3.28417 3.94279
800.991 1.92081 0.655709 1.01717 1.89159 0.355887 -0.199631 -0.287219 1.72125 -0.00651623 0.740208 1.52747 4.10098 3.71768 3.12948 0.269659 1.59288 2.53148 3.24401 2.41217 3.22433 1.1574 3.40291 3.93331 3.07502 1.66178 3.61686 2.82949 2.9957 2.02652 1.62913 1.0607 3.26542 2.0166 2.32703 1.66613 0.836556 1.314 3.56084 0.660268 2.60021 1.26465 3.78085 3.76813 3.48719 4.28558 3.60203 1.90781 2.06529 3.2519 1.72549 4.21041 3.34477 3.96227
832.491 1.85008 0.606326 0.990787 1.83392 0.307112 -0.25223 -0.29722 1.68818 -0.058556 0.694956 1.5011 4.19678 3.86183 3.25201 0.230214 1.5547 2.57697 3.21338 2.36712 3.20762 1.11453 3.39114 3.93045 3.09414 1.65184 3.60832 2.81226 3.11295 2.04253 1.59316 1.05005 3.26788 2.00208 2.30568 1.638 0.840634 1.28931 3.54365 0.652932 2.64541 1.26365 3.74952 3.73515 3.48196 4.3255 3.58497 1.84384 2.03501 3.2207 1.71215 4.26808 3.43876 4.0451
863.991 1.88151 0.63266 1.17853 1.89987 0.336317 -0.229364 -0.169531 1.7248 -0.0440476 0.722441 1.53449 4.23792 3.81533 3.25917 0.242974 1.55382 2.68812 3.43447 2.51232 3.37033 1.12583 3.58484 4.07138 3.23042 1.86903 3.74889 2.91304 3.16033 2.16037 1.57377 1.13129 3.39514 2.04199 2.32969 1.63147 0.908274 1.26755 3.67464 0.674868 2.82851 1.34718 3.85235 3.90606 3.59947 4.33229 3.67901 1.81522 2.0474 3.17936 1.68025 4.2785 3.42204 4.06547
890.99 1.88692 0.630204 1.23155 1.90865 0.335177 -0.233815 -0.161239 1.69897 -0.0408025 0.718643 1.52144 4.16311 3.71504 3.17382 0.238354 1.53199 2.65794 3.45884 2.5397 3.41232 1.10823 3.57427 4.08697 3.22558 1.87607 3.75658 2.89406 3.05123 2.16731 1.53795 1.11007 3.40173 2.02164 2.30781 1.59215 0.864583 1.22499 3.67381 0.628155 2.78824 1.318 3.83161 3.90816 3.57705 4.23695 3.62537 1.7565 1.99723 3.11056 1.61105 4.17811 3.3179 3.98607
922.49 1.77353 0.582364 0.665676 1.73308 0.260021 -0.294516 -0.400251 1.56123 -0.0897492 0.644578 1.40284 3.85929 3.4692 2.96396 0.202261 1.48926 2.18713 2.83409 2.0353 2.82758 1.03382 3.11549 3.58238 2.71505 1.27406 3.26075 2.59642 2.75739 1.57249 1.48808 0.865916 2.97566 1.84883 2.16763 1.50553 0.63278 1.18086 3.08589 0.517732 2.28008 0.983793 3.37035 3.29688 3.09608 3.99453 3.17386 1.65183 1.83954 3.0361 1.50511 3.91634 2.92278 3.59262
953.99 1.77808 0.576088 0.734088 1.74982 0.228309 -0.32066 -0.371795 1.5684 -0.118907 0.641095 1.42562 3.98834 3.57864 3.00402 0.18919 1.47766 2.27757 2.94841 2.11235 2.9251 1.02612 3.19312 3.64071 2.79029 1.34561 3.35053 2.64806 2.80966 1.6209 1.47417 0.902262 3.04456 1.86694 2.17387 1.49961 0.667993 1.15311 3.14525 0.519096 2.40098 1.00998 3.42988 3.38228 3.18224 4.03727 3.2456 1.63875 1.8514 3.04939 1.49312 3.97399 3.01698 3.66167
985.49 1.8144 0.547437 0.977687 1.79246 0.192031 -0.362469 -0.289482 1.59268 -0.168594 0.629148 1.44928 4.22508 3.77417 3.20319 0.157137 1.44072 2.55386 3.25737 2.3453 3.19568 1.00594 3.4094 3.89733 3.05712 1.63206 3.5852 2.76062 3.02312 1.85371 1.43241 0.99374 3.25621 1.90953 2.20002 1.48036 0.747261 1.09625 3.40483 0.504013 2.66274 1.1189 3.62537 3.66922 3.41315 4.20264 3.44179 1.6174 1.87863 3.02588 1.46307 4.07745 3.20811 3.87151
1016.99 1.89798 0.467131 1.14713 1.82575 0.0869593 -0.477946 -0.185974 1.67972 -0.29164 0.550563 1.46692 4.68066 4.16176 3.65243 0.0590704 1.34657 2.94645 3.60862 2.43895 3.17306 0.915657 3.76641 3.96089 3.19767 1.99761 3.75138 2.89632 3.49265 2.0054 1.32911 1.14132 3.39186 1.86494 2.13543 1.38325 0.857865 0.962296 3.5802 0.460231 3.15091 1.33061 3.72405 4.01898 3.53022 4.60455 3.57224 1.57203 1.92079 2.99432 1.48073 4.39147 3.37861 4.13926
1048.49 1.76856 0.407888 1.1203 1.76549 0.0393647 -0.527971 -0.259598 1.55055 -0.339835 0.506381 1.38229 4.80051 4.29338 3.64491 0.0201187 1.3041 2.92954 3.55968 2.41139 3.22756 0.876255 3.64271 3.96053 3.21906 1.8929 3.72808 2.81863 3.55627 1.9924 1.29091 1.03391 3.35039 1.83812 2.10411 1.35245 0.768921 0.9203 3.57698 0.400492 3.01528 1.21004 3.70977 3.93291 3.52219 4.52333 3.53047 1.49648 1.83354 2.94143 1.38363 4.36902 3.507 4.23779
1079.99 1.93599 0.505816 1.1615 1.86567 0.133837 -0.443819 -0.11808 1.733 -0.247641 0.583198 1.51553 4.616 4.17719 3.60844 0.0962686 1.38096 2.9202 3.63507 2.46666 3.13703 0.946128 3.82307 3.96639 3.22035 2.02133 3.77509 2.96591 3.50143 1.92446 1.3555 1.20765 3.44366 1.91925 2.16896 1.41679 0.917895 1.01003 3.57978 0.513261 3.18788 1.38921 3.70905 4.04469 3.55716 4.6252 3.5793 1.63303 1.93896 3.01952 1.5502 4.41115 3.34793 4.12882
1106.99 1.84339 0.387103 1.2693 1.75356 0.0107931 -0.565261 -0.205839 1.59793 -0.359542 0.476379 1.34697 4.94422 4.5151 3.91742 -0.0100633 1.25874 3.16673 3.7321 2.46964 3.19081 0.839507 3.89948 4.06105 3.33332 2.18941 3.84306 2.88221 3.76105 2.15511 1.23765 1.13034 3.45777 1.81187 2.06849 1.32083 0.823003 0.885117 3.69969 0.399971 3.29296 1.40684 3.77593 4.21584 3.61721 4.75155 3.55552 1.52933 1.88951 2.89297 1.45077 4.49512 3.4646 4.27167
1138.49 1.60649 0.252678 1.43699 1.65431 -0.09094 -0.667012 -0.342137 1.36271 -0.450369 0.376023 1.17661 5.24927 4.57318 3.90407 -0.107308 1.14617 3.39052 3.83919 2.51767 3.59337 0.74547 3.746 4.23795 3.48205 2.10991 3.89912 2.81336 3.8336 2.5433 1.14651 0.956127 3.4351 1.74666 2.00941 1.25536 0.668043 0.790755 3.91023 0.265083 3.26885 1.23202 3.92949 4.21076 3.70545 4.73722 3.52455 1.43504 1.75946 2.78976 1.28826 4.45582 4.05092 4.8408
1170.24 1.29408 0.00124618 0.790674 1.34584 -0.38043 -0.943599 -0.745686 1.0375 -0.732543 0.147149 0.912383 4.94133 4.52894 3.70529 -0.327012 0.937822 2.72822 3.21905 2.07487 3.00636 0.517862 3.11386 3.75628 3.00065 1.39787 3.44316 2.38409 3.69032 1.72423 0.927579 0.53674 3.03437 1.50728 1.75816 1.01817 0.282783 0.529479 3.29336 -0.0492436 2.45413 0.700986 3.41486 3.55687 3.2311 4.33548 3.13965 1.07558 1.37719 2.51475 0.928972 4.24628 3.43054 4.19278
1202.64 1.39231 0.0590462 0.6459 1.36545 -0.328394 -0.900313 -0.735109 1.1316 -0.679613 0.172162 0.986513 4.5961 4.14097 3.4873 -0.29098 0.977405 2.46552 3.05568 1.95527 2.80661 0.542702 3.05922 3.5626 2.81088 1.25196 3.29435 2.39242 3.4101 1.39292 0.952146 0.578538 2.95273 1.50708 1.75007 1.03366 0.332548 0.568363 3.05894 -0.00356391 2.36141 0.697467 3.24952 3.38993 3.09159 4.22559 3.03863 1.09902 1.37794 2.54968 0.968345 4.07152 3.08885 3.91837
1234.27 1.55008 0.0273525 0.757167 1.42537 -0.392651 -0.971226 -0.572367 1.27815 -0.759049 0.149754 1.02998 4.7783 4.34718 3.80398 -0.341059 0.930161 2.69331 3.37054 2.04693 2.70801 0.503113 3.53359 3.67276 2.91812 1.7236 3.50397 2.562 3.82286 1.56003 0.898068 0.798036 3.1549 1.50631 1.75418 0.978667 0.490068 0.488139 3.21502 0.0264918 2.87452 1.01371 3.34969 3.8315 3.23876 4.58026 3.183 1.11102 1.52144 2.56871 1.10794 4.3141 2.95295 3.80354
1261.27 1.62124 0.111788 0.882755 1.47766 -0.308793 -0.883817 -0.497309 1.32404 -0.666615 0.230311 1.05669 5.0507 4.92675 4.07008 -0.249712 1.01277 2.85992 3.47886 2.13413 2.73488 0.590397 3.67486 3.80235 3.05829 1.89138 3.63585 2.6276 3.93377 1.70439 0.974106 0.855657 3.27113 1.5583 1.82034 1.06609 0.550744 0.569881 3.34067 0.0952647 2.9537 1.11578 3.45358 4.02797 3.36242 4.63444 3.25352 1.17846 1.59978 2.61159 1.15854 4.25725 2.99416 3.81308
1292.9 1.66835 0.313951 1.67344 1.62893 -0.061359 -0.636632 -0.317419 1.35635 -0.393216 0.424902 1.18164 5.52106 4.95952 4.07939 -0.034401 1.20102 3.60119 4.08462 2.59719 3.79337 0.797062 3.90427 4.51382 3.72699 2.28033 4.07794 2.83207 3.94731 2.7987 1.18065 0.987141 3.56943 1.77476 2.0237 1.30426 0.706884 0.821938 4.17393 0.296237 3.38753 1.28146 4.10358 4.44058 3.90172 4.71101 3.50462 1.41006 1.75625 2.76057 1.2865 4.47566 4.2592 4.98725
1325.3 1.60071 0.385682 1.65465 1.69534 0.0627646 -0.517237 -0.318786 1.29821 -0.272348 0.516607 1.23632 4.89999 4.44369 3.53272 0.0562542 1.28003 3.3987 3.92317 2.72122 3.76865 0.904151 3.58308 4.5563 3.73832 1.97027 4.08288 2.86473 3.51809 2.76405 1.2898 0.868219 3.58187 1.91406 2.18535 1.43243 0.655157 0.943714 4.152 0.353614 2.89076 1.14646 4.15426 4.25215 3.89528 4.33904 3.59335 1.51444 1.75174 2.85533 1.28099 4.21462 4.15441 4.74498
1357.7 1.6421 0.428056 1.57995 1.69784 0.106881 -0.465556 -0.308938 1.35953 -0.226146 0.552735 1.30906 4.57729 4.18082 3.33793 0.0956262 1.3234 3.15898 3.7868 2.68806 3.66938 0.938349 3.52616 4.48016 3.6555 1.91137 4.03321 2.83211 3.28074 2.60685 1.31947 0.894855 3.55265 1.94316 2.20603 1.45831 0.677407 0.990423 4.04075 0.394473 2.77949 1.13513 4.08348 4.12121 3.82128 4.21209 3.54402 1.52659 1.79562 2.89446 1.32459 4.10146 3.87725 4.46903
1385.34 1.69236 0.437649 1.55033 1.71707 0.10451 -0.46302 -0.260221 1.41848 -0.230548 0.558554 1.36103 4.61272 4.15927 3.36072 0.0944413 1.3295 3.13704 3.81293 2.68125 3.62792 0.934521 3.60894 4.42134 3.59339 1.97579 4.02456 2.85325 3.32044 2.46856 1.31361 0.984415 3.56143 1.94987 2.1997 1.44508 0.745617 0.991346 3.99198 0.426466 2.85945 1.1931 4.04046 4.13057 3.8003 4.25283 3.52974 1.52568 1.83724 2.92596 1.35791 4.16307 3.79411 4.44139
1417.09 1.68287 0.391818 1.66716 1.71778 0.0542829 -0.517217 -0.247018 1.39293 -0.281926 0.51895 1.31752 4.88889 4.35725 3.59189 0.0502818 1.28346 3.36051 3.98156 2.71799 3.73372 0.895952 3.74061 4.5102 3.69893 2.1058 4.10476 2.90713 3.56176 2.6495 1.27071 1.01312 3.62619 1.92344 2.17812 1.41032 0.761585 0.93496 4.12928 0.39807 3.07268 1.24941 4.13869 4.2833 3.90248 4.43126 3.56879 1.50941 1.8559 2.90985 1.34353 4.30391 4.03573 4.73951
1449.49 1.61846 0.333119 1.43092 1.632 -0.0147357 -0.580945 -0.325238 1.33715 -0.348626 0.457118 1.2634 4.87318 4.46973 3.565 -0.0059889 1.23145 3.16881 3.74615 2.57179 3.51391 0.832685 3.58143 4.30483 3.54736 1.91608 3.93048 2.78631 3.58586 2.30685 1.20688 0.932582 3.49289 1.85478 2.09567 1.34054 0.681806 0.871786 3.87974 0.327415 2.8532 1.1232 3.93112 4.05449 3.72682 4.35037 3.4561 1.41221 1.72996 2.82919 1.23769 4.22041 3.83743 4.53926
1481.12 1.57204 0.354538 1.20591 1.57217 0.0077154 -0.555575 -0.421643 1.29427 -0.315025 0.462849 1.23274 4.45257 4.19203 3.34165 0.0189673 1.25468 2.85791 3.38489 2.40894 3.3302 0.845974 3.30532 4.1346 3.37045 1.59374 3.74247 2.64749 3.28962 2.04966 1.22536 0.795275 3.32199 1.82538 2.06998 1.35291 0.589849 0.897972 3.62546 0.302196 2.48347 0.963651 3.76263 3.75568 3.53606 4.07651 3.3069 1.38569 1.63025 2.78357 1.18477 3.96604 3.54306 4.2173
1508.12 1.42882 0.192722 1.01181 1.42921 -0.17108 -0.738657 -0.578509 1.14984 -0.492918 0.314174 1.07386 4.80763 4.65952 3.63776 -0.131413 1.10864 2.85516 3.27604 2.2147 3.16926 0.695426 3.15309 3.94395 3.21958 1.43423 3.56694 2.50672 3.51394 1.82534 1.07536 0.65493 3.16516 1.67872 1.91697 1.20156 0.435114 0.719529 3.44569 0.132335 2.39123 0.814989 3.58796 3.59432 3.36789 4.1523 3.16233 1.21845 1.4649 2.63404 1.02382 4.04431 3.58335 4.3563
1539.62 1.63155 0.444428 0.761729 1.55807 0.0924371 -0.474045 -0.472923 1.37157 -0.214864 0.515667 1.28491 3.90543 3.57759 2.91683 0.0995704 1.33539 2.33471 2.87409 2.03162 2.87903 0.897019 2.99658 3.62732 2.83902 1.20675 3.30783 2.53304 2.7776 1.55216 1.29495 0.745132 3.00448 1.79368 2.04066 1.39784 0.55519 0.991549 3.13899 0.346792 2.19559 0.870142 3.37053 3.27608 3.12706 3.83383 3.02545 1.41008 1.60132 2.84239 1.23935 3.74498 2.99656 3.67357
1571.12 1.6388 0.401746 1.00227 1.57502 0.0535261 -0.518121 -0.423214 1.37689 -0.26257 0.489828 1.27878 4.10933 3.75254 3.07938 0.0570687 1.29105 2.54187 3.13569 2.23245 3.12304 0.870296 3.18946 3.85061 3.07993 1.42058 3.52169 2.62755 2.99443 1.72901 1.25517 0.818042 3.19403 1.82321 2.06198 1.37 0.604503 0.945381 3.354 0.339474 2.38426 0.959036 3.53903 3.52168 3.33526 4.00453 3.17568 1.41146 1.6332 2.82979 1.24562 3.8382 3.19201 3.8673
1603.01 1.50009 0.281575 0.667757 1.43447 -0.0809593 -0.652499 -0.608174 1.23218 -0.390078 0.371164 1.13743 4.158 4.01721 3.21986 -0.052153 1.17973 2.41327 2.85234 1.93757 2.80864 0.74749 2.91818 3.52419 2.80631 1.1093 3.22873 2.43326 3.04553 1.40557 1.14338 0.63279 2.9369 1.66645 1.91355 1.24322 0.422568 0.814107 3.02342 0.189283 2.14273 0.751381 3.25369 3.21594 3.0576 3.92936 2.93721 1.25895 1.46779 2.70716 1.10824 3.7765 3.09231 3.84507
1634.76 1.61977 0.380667 0.819251 1.53995 0.0198478 -0.553218 -0.476429 1.35138 -0.288816 0.463847 1.25143 4.05837 3.76282 3.08304 0.0367153 1.26987 2.42032 3.0061 2.0923 2.95297 0.839298 3.09933 3.6618 2.91478 1.27988 3.37302 2.56184 2.94702 1.52425 1.23073 0.779382 3.08487 1.77431 2.02088 1.33353 0.566775 0.914147 3.161 0.305302 2.3087 0.892286 3.37673 3.38372 3.21379 3.96887 3.05979 1.37804 1.58829 2.81091 1.23621 3.79697 3.06166 3.77223
1666.26 1.65434 0.376744 1.03941 1.59326 0.0152779 -0.560527 -0.383518 1.38713 -0.301156 0.474008 1.28042 4.25097 3.93306 3.23556 0.0295406 1.26458 2.5809 3.28754 2.28666 3.15622 0.845564 3.33467 3.86142 3.11767 1.51813 3.58779 2.67997 3.14266 1.68815 1.22456 0.896505 3.27589 1.82584 2.06605 1.33778 0.651769 0.89908 3.37698 0.33991 2.55005 1.01327 3.55704 3.64354 3.4291 4.1311 3.22433 1.41194 1.63801 2.82149 1.2836 3.94237 3.25297 3.92689
1693.26 1.81816 0.414143 1.38459 1.72582 0.0537853 -0.524364 -0.157094 1.53605 -0.280168 0.525066 1.4021 4.56367 4.16048 3.46794 0.0534347 1.29369 2.93756 3.80983 2.58856 3.40074 0.885347 3.82079 4.17356 3.40341 2.05263 3.94664 2.94753 3.43968 2.03543 1.24949 1.17957 3.60287 1.93003 2.15698 1.37464 0.88065 0.922107 3.76955 0.454817 3.15875 1.33584 3.85871 4.13011 3.73522 4.46874 3.47869 1.52438 1.84611 2.9135 1.4486 4.27603 3.49709 4.22357
1724.76 1.92409 0.387153 1.44941 1.69526 0.0120052 -0.561621 -0.114014 1.59378 -0.320107 0.49076 1.36799 4.70779 4.26256 3.76731 0.0170444 1.25838 3.10481 3.924 2.60169 3.24932 0.850447 4.11854 4.21179 3.43509 2.33875 4.06662 2.97289 3.62177 2.17567 1.20076 1.27508 3.68941 1.87749 2.09914 1.32731 0.948103 0.877233 3.84987 0.444807 3.36951 1.49633 3.92711 4.41059 3.80421 4.64202 3.49846 1.49922 1.97989 2.87986 1.49917 4.39736 3.38179 4.15655
1756.52 1.48101 0.311197 1.60011 1.53854 -0.0185095 -0.589898 -0.419697 1.16522 -0.318605 0.441362 1.14104 4.47117 4.06538 3.28888 0.00315174 1.20974 3.09092 3.74011 2.6603 3.66643 0.835085 3.37866 4.42715 3.64068 1.77066 4.0139 2.73376 3.27365 2.54055 1.20364 0.745183 3.54053 1.86237 2.10664 1.36539 0.553336 0.859774 4.02859 0.272722 2.61307 0.997184 4.1113 4.0945 3.8389 4.09969 3.42227 1.38871 1.61865 2.75305 1.15268 4.02339 3.87387 4.47725
1788.91 1.55691 0.39545 1.07314 1.51959 0.0534158 -0.515951 -0.467566 1.27125 -0.242816 0.48595 1.22821 3.80754 3.36305 2.76919 0.0682733 1.28605 2.30048 3.06722 2.28681 3.15998 0.87524 3.06935 3.95257 3.09461 1.37512 3.5918 2.56419 2.73925 1.89383 1.25678 0.721888 3.20338 1.82874 2.05842 1.3883 0.53569 0.941219 3.45025 0.31133 2.24207 0.892355 3.65216 3.55368 3.40062 3.80258 3.1672 1.37932 1.56758 2.80083 1.19461 3.71471 3.02755 3.65198
1816.69 1.57774 0.401264 0.896198 1.51381 0.0509557 -0.518079 -0.486199 1.29932 -0.241433 0.482373 1.24203 3.68606 3.21478 2.64169 0.0707038 1.28982 2.1123 2.92677 2.14191 2.99066 0.86704 3.00152 3.7591 2.86812 1.2515 3.42839 2.54909 2.61194 1.67738 1.25614 0.723811 3.08568 1.79512 2.02802 1.37329 0.521444 0.94475 3.2517 0.307871 2.20206 0.860373 3.49134 3.4006 3.25801 3.75224 3.05784 1.37079 1.55276 2.80832 1.20184 3.6599 2.83434 3.45435
1849.08 1.55717 0.393011 0.537865 1.4679 0.0326972 -0.534344 -0.568924 1.28363 -0.251212 0.45958 1.21594 3.51689 3.06156 2.51777 0.062418 1.28217 1.87956 2.62576 1.83535 2.64446 0.836866 2.79901 3.34078 2.47431 0.990131 3.08276 2.45443 2.45268 1.30875 1.24436 0.651528 2.82608 1.70942 1.94637 1.33312 0.44527 0.934695 2.89478 0.273333 2.0526 0.754582 3.17405 3.07121 2.95284 3.65476 2.81774 1.33303 1.49818 2.78113 1.18122 3.55768 2.60484 3.23601
1881.48 1.53421 0.378517 0.267274 1.42867 0.0147018 -0.552562 -0.622524 1.26406 -0.265607 0.434399 1.18918 3.44359 3.00819 2.48588 0.04755 1.26787 1.74694 2.41379 1.58051 2.36695 0.798921 2.63947 2.96278 2.17505 0.789473 2.78195 2.37882 2.37834 0.975164 1.22411 0.595155 2.62926 1.63763 1.86514 1.28257 0.390432 0.91705 2.6077 0.245174 1.95371 0.674187 2.89066 2.80911 2.71077 3.61209 2.6167 1.29846 1.46253 2.75711 1.17283 3.49561 2.4888 3.12832
1909.26 1.53484 0.375454 0.340674 1.43269 0.0111127 -0.556389 -0.606699 1.26677 -0.270598 0.436185 1.19097 3.46632 3.01096 2.48805 0.0437486 1.26589 1.76951 2.4793 1.64782 2.44498 0.802218 2.6897 3.05716 2.24646 0.847162 2.86158 2.39762 2.38663 1.05221 1.21968 0.615697 2.69205 1.65637 1.88928 1.28849 0.406455 0.911594 2.67751 0.254153 1.9943 0.695631 2.96149 2.88407 2.77704 3.64098 2.66883 1.30607 1.46996 2.75452 1.18542 3.51159 2.49564 3.13865
1941.65 1.55369 0.37327 0.621702 1.467 0.00999515 -0.557117 -0.546215 1.28134 -0.276112 0.450003 1.21015 3.59026 3.09846 2.55727 0.0419029 1.26529 1.92455 2.73365 1.90616 2.73771 0.822903 2.87952 3.42305 2.55984 1.05853 3.16646 2.47784 2.49118 1.34559 1.21899 0.68357 2.9181 1.72702 1.96632 1.3186 0.469748 0.909526 2.96524 0.27758 2.13036 0.784017 3.22966 3.16022 3.03029 3.73282 2.87506 1.33214 1.51224 2.76671 1.21068 3.59805 2.63313 3.28236
1974.05 1.54325 0.366582 0.534547 1.45296 0.00202211 -0.565182 -0.565996 1.26699 -0.281307 0.440464 1.20171 3.55757 3.06857 2.52865 0.0360572 1.2582 1.8847 2.67629 1.83858 2.66107 0.811114 2.83245 3.32826 2.47025 1.0004 3.08845 2.45046 2.45347 1.26612 1.21177 0.665449 2.85866 1.70717 1.94416 1.30492 0.454975 0.90145 2.8841 0.2674 2.09718 0.759036 3.15826 3.08735 2.96405 3.71234 2.81782 1.31798 1.49542 2.76163 1.20732 3.59232 2.59088 3.23464
2001.82 1.52232 0.355956 0.273633 1.41532 -0.0146338 -0.579932 -0.623611 1.24241 -0.291371 0.419836 1.17767 3.45404 2.97218 2.46497 0.0265605 1.2477 1.72706 2.45162 1.60005 2.39634 0.781756 2.66391 2.97832 2.18017 0.803296 2.80715 2.38044 2.35458 0.972089 1.19863 0.611271 2.66486 1.63947 1.87318 1.26359 0.3985 0.888341 2.61691 0.241214 1.99159 0.680239 2.9013 2.83764 2.73614 3.63324 2.62799 1.28611 1.46242 2.74514 1.18833 3.52829 2.45439 3.09469
2034.22 1.50296 0.343849 0.109745 1.39041 -0.0286754 -0.592444 -0.659659 1.22285 -0.300663 0.402359 1.15689 3.40851 2.93481 2.44561 0.0166822 1.23607 1.64198 2.32129 1.44563 2.22756 0.758092 2.55494 2.74428 2.00387 0.679425 2.62336 2.33023 2.30801 0.761226 1.18573 0.577098 2.54246 1.59624 1.82026 1.22947 0.361756 0.874468 2.44845 0.222523 1.9356 0.627786 2.72581 2.67805 2.59453 3.59359 2.50658 1.26481 1.43386 2.72914 1.17752 3.49127 2.38594 3.03317
2066.62 1.49959 0.335898 0.1805 1.39246 -0.0367731 -0.600454 -0.649182 1.21856 -0.310299 0.399034 1.14875 3.44617 2.96887 2.47436 0.0089709 1.22751 1.69079 2.39023 1.51657 2.30693 0.758195 2.60405 2.85888 2.09433 0.736037 2.7088 2.34555 2.3388 0.853966 1.1774 0.58659 2.59785 1.60989 1.84187 1.23529 0.374233 0.864938 2.52234 0.22294 1.96555 0.646239 2.80102 2.74904 2.6578 3.61624 2.56339 1.26536 1.4326 2.72031 1.17072 3.51001 2.42763 3.08029
2094.39 1.50506 0.332409 0.325675 1.40451 -0.0405105 -0.6047 -0.624572 1.21944 -0.317028 0.40303 1.14963 3.49144 2.99514 2.5017 0.00573507 1.22471 1.77385 2.52334 1.65276 2.46161 0.768511 2.70196 3.06389 2.25788 0.84554 2.87171 2.38741 2.38865 1.01957 1.17515 0.614789 2.71255 1.64496 1.88243 1.25431 0.402556 0.859552 2.67164 0.229019 2.02826 0.685944 2.9536 2.89271 2.78987 3.65679 2.66999 1.27948 1.44208 2.7182 1.17115 3.54885 2.49007 3.15535
2126.8 1.49845 0.325422 0.293873 1.39501 -0.0489361 -0.611823 -0.634834 1.2073 -0.32509 0.395487 1.14137 3.47725 2.97755 2.48962 -0.000452915 1.21896 1.75876 2.50091 1.62249 2.43645 0.760489 2.68545 3.02106 2.21986 0.818002 2.83723 2.37987 2.37358 0.981259 1.16876 0.603954 2.69271 1.63519 1.87059 1.24362 0.393733 0.853206 2.64007 0.221899 2.01796 0.677193 2.91942 2.86423 2.76134 3.64827 2.6474 1.27071 1.43187 2.70727 1.16189 3.53966 2.46692 3.13255
2159.2 1.4803 0.313689 0.171749 1.37286 -0.0644885 -0.62475 -0.667414 1.18805 -0.336838 0.379493 1.12477 3.44624 2.96307 2.47611 -0.0110029 1.20832 1.71776 2.39777 1.50595 2.30904 0.740196 2.59665 2.85262 2.09103 0.725476 2.70531 2.3443 2.3427 0.837131 1.15695 0.570885 2.60344 1.6013 1.82964 1.21776 0.361606 0.839709 2.50928 0.203684 1.96507 0.637004 2.79986 2.74555 2.65066 3.62483 2.56035 1.2475 1.41188 2.69297 1.14406 3.50186 2.4236 3.08349
2186.97 1.46364 0.300607 0.045154 1.34698 -0.0819755 -0.639109 -0.702476 1.17209 -0.350198 0.362971 1.10931 3.42843 2.98309 2.4929 -0.0223935 1.19687 1.67733 2.29896 1.38245 2.18067 0.718434 2.50912 2.67529 1.96923 0.627991 2.56245 2.30461 2.32777 0.676135 1.14404 0.535288 2.51359 1.56397 1.78395 1.18742 0.331702 0.825593 2.37752 0.184037 1.91504 0.593628 2.66001 2.62475 2.54243 3.59836 2.46395 1.22632 1.39176 2.6795 1.12588 3.47274 2.39578 3.05288
2219.37 1.46657 0.299943 0.0732473 1.34902 -0.085152 -0.641735 -0.698697 1.17298 -0.352186 0.364833 1.11279 3.42815 2.96401 2.48146 -0.0229592 1.19474 1.6609 2.32969 1.41268 2.2168 0.720397 2.53268 2.72389 1.99678 0.653371 2.60319 2.30825 2.32132 0.713824 1.14273 0.542267 2.54399 1.57207 1.79561 1.19194 0.341708 0.823356 2.41265 0.184722 1.93105 0.603294 2.6988 2.65799 2.57216 3.60899 2.48503 1.23073 1.39565 2.68122 1.12701 3.47453 2.39002 3.04759
2251.77 1.46861 0.295713 0.11227 1.34782 -0.0891655 -0.646089 -0.690564 1.17107 -0.355905 0.364015 1.11351 3.43946 2.96178 2.47824 -0.0256654 1.19077 1.66668 2.3738 1.45644 2.26169 0.721396 2.55991 2.78837 2.04648 0.686732 2.65064 2.32041 2.33238 0.767556 1.13987 0.553353 2.57919 1.58104 1.80851 1.19603 0.351399 0.818084 2.45705 0.18686 1.95214 0.615315 2.74668 2.70716 2.61023 3.61466 2.51808 1.23232 1.40001 2.68233 1.12855 3.48182 2.40616 3.06245
2279.54 1.46145 0.285767 0.147085 1.34207 -0.0986855 -0.655767 -0.68529 1.16307 -0.364512 0.357454 1.10545 3.47781 3.00604 2.51871 -0.0342084 1.18243 1.71177 2.40593 1.48724 2.29474 0.716792 2.58316 2.83986 2.09559 0.711973 2.68932 2.32542 2.36531 0.807152 1.13046 0.553443 2.60556 1.58421 1.81217 1.19465 0.353035 0.808567 2.48976 0.18379 1.96282 0.621739 2.77816 2.7397 2.6435 3.63435 2.54455 1.23161 1.39657 2.67264 1.1283 3.4991 2.44721 3.10878
2311.68 1.44261 0.273713 0.0202753 1.32183 -0.108677 -0.668073 -0.708364 1.15029 -0.370893 0.343957 1.09213 3.45198 3.0205 2.52667 -0.0417173 1.17576 1.65816 2.29785 1.36114 2.15959 0.699363 2.49783 2.64525 1.95878 0.614749 2.5425 2.29702 2.34684 0.648639 1.12238 0.530578 2.5062 1.55379 1.76865 1.17189 0.33065 0.80501 2.35118 0.17603 1.91511 0.590757 2.63691 2.60897 2.52865 3.62537 2.4478 1.22126 1.38802 2.66523 1.12525 3.47503 2.41189 3.07449
2343.18 1.43591 0.260253 0.0412891 1.31216 -0.117108 -0.681417 -0.699008 1.15054 -0.369579 0.344333 1.0954 3.49651 3.07842 2.57563 -0.0441214 1.18083 1.7058 2.32669 1.38837 2.18782 0.702106 2.51266 2.67799 2.00412 0.638132 2.57054 2.31447 2.39188 0.688282 1.11967 0.547097 2.5283 1.57261 1.7812 1.19042 0.349647 0.815411 2.38551 0.19808 1.92899 0.609238 2.67413 2.6394 2.55952 3.63297 2.47265 1.22882 1.42014 2.68331 1.13865 3.49503 2.4622 3.12992
2374.68 1.42996 0.249845 0.172714 1.31631 -0.127501 -0.690944 -0.686052 1.14772 -0.384507 0.336967 1.08615 3.57116 3.15107 2.63811 -0.0563578 1.16576 1.80351 2.44471 1.50978 2.32178 0.703347 2.59164 2.86154 2.16109 0.729273 2.72045 2.32973 2.45153 0.835192 1.10897 0.558857 2.62618 1.58701 1.80853 1.19537 0.359297 0.799652 2.51475 0.182925 1.97203 0.626887 2.8015 2.77488 2.67053 3.67314 2.56764 1.22065 1.40997 2.66869 1.12644 3.5223 2.54472 3.21739
2406.83 1.43245 0.255043 0.159498 1.32011 -0.125567 -0.686169 -0.698883 1.14381 -0.390259 0.332847 1.0787 3.54855 3.11345 2.61452 -0.0602979 1.15583 1.78129 2.43326 1.49492 2.30842 0.694004 2.58241 2.84796 2.1382 0.717915 2.70686 2.31336 2.44107 0.805595 1.10201 0.542681 2.61644 1.57181 1.79886 1.17425 0.33775 0.783107 2.49809 0.163879 1.9618 0.611211 2.78351 2.75188 2.6542 3.6665 2.55039 1.21049 1.39175 2.65579 1.11099 3.51559 2.51671 3.18657
2434.6 1.41862 0.247489 0.0141234 1.30039 -0.136934 -0.696153 -0.731732 1.12934 -0.397384 0.320301 1.06428 3.49032 3.07172 2.5766 -0.0663861 1.14897 1.69141 2.31536 1.36115 2.1642 0.676496 2.49 2.65012 1.98196 0.608519 2.55205 2.27614 2.39021 0.633338 1.09481 0.511054 2.50941 1.53821 1.75438 1.1482 0.305939 0.774674 2.35315 0.147747 1.90377 0.566114 2.63487 2.61168 2.53499 3.6321 2.44242 1.19414 1.36881 2.64484 1.10369 3.47705 2.44638 3.11515
2467 1.41073 0.240721 -0.0365984 1.29034 -0.146981 -0.70487 -0.747802 1.1197 -0.405298 0.312797 1.05469 3.47967 3.06445 2.57406 -0.0717067 1.14279 1.66048 2.27827 1.31408 2.11919 0.666944 2.45994 2.58138 1.9323 0.567742 2.50053 2.26322 2.37825 0.573469 1.08919 0.497186 2.47375 1.52458 1.73706 1.13508 0.293007 0.766029 2.30109 0.13886 1.88695 0.54792 2.58263 2.56755 2.49439 3.62508 2.41078 1.18177 1.36173 2.6363 1.09688 3.47011 2.43432 3.098
2499.4 1.41109 0.236016 0.0353196 1.29285 -0.150066 -0.709164 -0.738122 1.11608 -0.409687 0.31283 1.05331 3.51162 3.08338 2.58893 -0.0750779 1.13968 1.70847 2.34096 1.38659 2.1964 0.670479 2.50643 2.68914 2.01285 0.623637 2.58524 2.28238 2.40366 0.659544 1.08608 0.509736 2.53097 1.53992 1.75694 1.14444 0.303454 0.761231 2.3746 0.140784 1.9156 0.565002 2.66323 2.64201 2.56106 3.64128 2.46521 1.18487 1.36825 2.63421 1.09561 3.49343 2.47358 3.12734
2527.17 1.40433 0.226529 0.0952105 1.29036 -0.160266 -0.717864 -0.735437 1.10859 -0.42041 0.308031 1.04744 3.54862 3.11052 2.61095 -0.0829033 1.13072 1.74428 2.39253 1.44422 2.26406 0.668568 2.54799 2.77857 2.08856 0.669912 2.65446 2.29392 2.43303 0.730892 1.07852 0.515566 2.57941 1.54834 1.77088 1.14688 0.310715 0.752145 2.43666 0.135979 1.94143 0.579648 2.72407 2.70589 2.61408 3.66169 2.51329 1.18215 1.37126 2.62823 1.08908 3.508 2.50421 3.16654
2559.57 1.39548 0.218916 0.0863564 1.28197 -0.168552 -0.727027 -0.743195 1.10192 -0.426828 0.30206 1.04057 3.54782 3.11025 2.61341 -0.0899785 1.12502 1.74067 2.38953 1.43743 2.25773 0.661618 2.54778 2.77196 2.08423 0.662042 2.65058 2.28858 2.43305 0.72497 1.07113 0.508965 2.57767 1.54234 1.76443 1.14018 0.302822 0.744671 2.42588 0.12981 1.93787 0.573783 2.71864 2.70304 2.60933 3.65384 2.50779 1.17498 1.36763 2.62116 1.08 3.50712 2.49417 3.16162
2591.97 1.384 0.209429 0.0445097 1.26893 -0.179601 -0.737498 -0.756373 1.09426 -0.436712 0.292896 1.02949 3.53723 3.10273 2.61248 -0.0975637 1.11715 1.71776 2.35757 1.40004 2.21553 0.651131 2.51948 2.72209 2.04133 0.629298 2.61012 2.27343 2.42351 0.674945 1.06221 0.49837 2.54724 1.52754 1.74915 1.12641 0.292284 0.735531 2.38406 0.119742 1.91602 0.557049 2.67797 2.66447 2.57339 3.64368 2.47847 1.16223 1.35444 2.6153 1.06773 3.49918 2.47731 3.15308
2619.74 1.37519 0.199936 -0.0141071 1.25545 -0.191797 -0.748943 -0.773752 1.08503 -0.447539 0.282331 1.01918 3.51721 3.08388 2.60008 -0.105385 1.10805 1.68162 2.31136 1.34245 2.15734 0.638757 2.48005 2.6384 1.98132 0.581912 2.54725 2.25322 2.40066 0.602849 1.05329 0.482497 2.50594 1.50825 1.72692 1.10986 0.27344 0.724538 2.32448 0.107254 1.89252 0.537037 2.61704 2.60634 2.52514 3.63099 2.43367 1.15176 1.34414 2.60729 1.05555 3.48388 2.44504 3.12234
2652.14 1.36252 0.190618 -0.0989857 1.24047 -0.204254 -0.760182 -0.795012 1.07007 -0.45656 0.270288 1.00511 3.49104 3.06119 2.58177 -0.113827 1.09915 1.62912 2.24526 1.26298 2.07572 0.623679 2.42477 2.52431 1.89036 0.517042 2.45761 2.22884 2.37096 0.499218 1.04423 0.461828 2.44371 1.48513 1.69675 1.08894 0.253449 0.713362 2.24272 0.0944006 1.86229 0.510161 2.53053 2.52712 2.45522 3.60956 2.37221 1.13731 1.32716 2.59348 1.04464 3.45834 2.40697 3.08041
2684.54 1.34987 0.179122 -0.118267 1.22915 -0.218724 -0.772614 -0.811264 1.05239 -0.471625 0.258903 0.986783 3.49553 3.07117 2.58882 -0.123724 1.08497 1.6205 2.23045 1.24467 2.05612 0.613626 2.40568 2.50113 1.87467 0.498157 2.43916 2.21603 2.37599 0.473641 1.03429 0.449104 2.4298 1.47149 1.6865 1.07523 0.240261 0.699278 2.22404 0.0781355 1.85371 0.494357 2.5106 2.51248 2.43801 3.61545 2.35892 1.1241 1.31531 2.57986 1.02815 3.4509 2.4038 3.07764
2712.32 1.34276 0.168594 -0.111336 1.21706 -0.231381 -0.784168 -0.819288 1.04143 -0.481921 0.250574 0.977641 3.51027 3.1042 2.6136 -0.133524 1.07779 1.6382 2.2455 1.25291 2.06755 0.60554 2.41064 2.51939 1.89668 0.503031 2.45235 2.21812 2.3962 0.486736 1.02445 0.446258 2.43749 1.4688 1.68348 1.07045 0.238021 0.688845 2.23414 0.0721595 1.85511 0.491743 2.5222 2.52506 2.44874 3.62394 2.36652 1.11641 1.31149 2.5685 1.01507 3.4575 2.41961 3.10118
2744.72 1.33387 0.156231 -0.04546 1.21466 -0.245255 -0.797445 -0.820636 1.03129 -0.496504 0.242985 0.966465 3.5589 3.16907 2.65402 -0.144404 1.06655 1.69635 2.30795 1.31662 2.14291 0.602473 2.45108 2.62528 1.98155 0.551098 2.53313 2.22477 2.43716 0.566135 1.01396 0.448969 2.48954 1.47699 1.69862 1.07218 0.239775 0.676162 2.3018 0.0627944 1.87517 0.500413 2.59831 2.59358 2.50815 3.64469 2.42035 1.11288 1.3078 2.55936 1.00605 3.4796 2.46589 3.14965
2777.12 1.3254 0.145634 -0.0209508 1.209 -0.256314 -0.807673 -0.823789 1.02342 -0.510898 0.234888 0.958099 3.58075 3.18844 2.67595 -0.153507 1.05498 1.7236 2.33091 1.33907 2.17227 0.596834 2.47098 2.66407 2.01587 0.567536 2.56135 2.22409 2.46017 0.60012 1.0044 0.447507 2.50963 1.47469 1.70102 1.06753 0.237068 0.664436 2.32799 0.0519273 1.88461 0.503186 2.62405 2.62036 2.53024 3.65417 2.44168 1.10572 1.30338 2.54762 0.9983 3.48532 2.48931 3.17996
2804.89 1.32099 0.133758 0.0690764 1.2089 -0.26809 -0.820398 -0.81533 1.0176 -0.522721 0.2293 0.954267 3.64331 3.25434 2.72856 -0.164434 1.04552 1.79563 2.41611 1.42832 2.27427 0.595097 2.53501 2.79351 2.13087 0.639079 2.67177 2.24067 2.51977 0.702583 0.994265 0.456064 2.58392 1.48971 1.71914 1.07205 0.248168 0.653065 2.42286 0.0498779 1.92262 0.520513 2.71654 2.71724 2.61516 3.68538 2.50984 1.10258 1.30395 2.54185 0.991929 3.51744 2.55005 3.23806
2837.29 1.30183 0.106091 0.101095 1.19289 -0.296623 -0.848562 -0.830445 0.993643 -0.554822 0.206847 0.927625 3.73488 3.38437 2.82854 -0.189319 1.01686 1.86541 2.45438 1.4607 2.31613 0.575513 2.54967 2.84307 2.19413 0.664939 2.71661 2.23037 2.61339 0.739788 0.969204 0.442043 2.60945 1.47751 1.71155 1.05219 0.240407 0.623446 2.46207 0.0247759 1.9321 0.513688 2.74836 2.75535 2.64171 3.72918 2.53715 1.08597 1.282 2.52039 0.969128 3.56488 2.6092 3.32286
2869.69 1.30651 0.0795132 0.380014 1.20698 -0.321668 -0.875033 -0.785797 0.989249 -0.583194 0.197905 0.923998 3.98107 3.64532 3.02531 -0.213628 0.995274 2.10935 2.73771 1.7237 2.61566 0.57273 2.75148 3.19264 2.52992 0.894791 3.02194 2.30203 2.85173 1.0098 0.94762 0.497621 2.84782 1.53 1.75723 1.06127 0.30121 0.596579 2.74932 0.0269078 2.07979 0.5963 3.01167 3.04553 2.90706 3.8739 2.73585 1.08404 1.30181 2.50679 0.963682 3.70308 2.82553 3.55512
2897.46 1.31735 0.0689135 0.562051 1.22471 -0.331374 -0.886048 -0.745383 0.990909 -0.597176 0.197311 0.927313 4.15244 3.7839 3.12743 -0.223771 0.98572 2.25994 2.93081 1.88926 2.79651 0.573417 2.88657 3.40082 2.73026 1.05262 3.19947 2.36401 2.99972 1.1872 0.939503 0.544866 2.99895 1.56483 1.78387 1.06717 0.341249 0.584842 2.93331 0.0330763 2.20466 0.656863 3.17809 3.2384 3.07521 3.98546 2.85835 1.09806 1.32701 2.50531 0.969117 3.80232 2.96572 3.69524
2929.86 1.27597 0.0402441 0.437334 1.18595 -0.365914 -0.918144 -0.799079 0.953799 -0.628611 0.169208 0.888129 4.10424 3.78375 3.14228 -0.249315 0.958472 2.18077 2.80778 1.78309 2.68194 0.543743 2.79687 3.25301 2.6176 0.947722 3.11287 2.30721 2.98993 1.055 0.912219 0.489753 2.90406 1.51838 1.74713 1.03335 0.312732 0.552907 2.83219 -0.00283536 2.12476 0.598861 3.06851 3.12364 2.97623 3.96999 2.76592 1.05557 1.2737 2.46728 0.929918 3.77582 2.90162 3.65065
2961.62 1.40631 0.0885815 1.02605 1.32384 -0.30489 -0.863143 -0.568842 1.07959 -0.581343 0.234849 0.996323 4.54431 4.04874 3.34922 -0.208015 1.00629 2.66379 3.49007 2.30172 3.20861 0.609501 3.33644 3.87467 3.17404 1.54512 3.63273 2.59222 3.3485 1.66453 0.960375 0.758122 3.4056 1.68134 1.87073 1.11171 0.520198 0.607252 3.42645 0.111938 2.65719 0.901789 3.61371 3.76032 3.51383 4.29122 3.15959 1.17387 1.47421 2.56722 1.05279 4.08203 3.3484 4.07846
2993.12 1.35793 0.0913205 0.798433 1.27987 -0.302751 -0.859012 -0.654429 1.03651 -0.572591 0.225361 0.965318 4.26714 3.80245 3.15823 -0.202991 1.00759 2.40907 3.19615 2.10292 3.01451 0.604575 3.09262 3.6505 2.95392 1.28217 3.4123 2.47596 3.10132 1.42501 0.963348 0.645702 3.20891 1.63792 1.83923 1.10342 0.424173 0.612099 3.1794 0.0814214 2.40054 0.776895 3.39978 3.48864 3.30452 4.08164 3.01788 1.14772 1.40342 2.54381 1.01588 3.88835 3.11751 3.84992
3020.89 1.29532 0.078847 0.37821 1.20562 -0.322057 -0.87365 -0.788143 0.976945 -0.584009 0.195043 0.908257 3.95128 3.57505 2.97908 -0.212327 0.992548 2.0799 2.73574 1.71876 2.60122 0.574239 2.73736 3.18938 2.51553 0.880026 3.00284 2.30119 2.81782 1.01287 0.94967 0.492203 2.84708 1.52916 1.76035 1.06064 0.284957 0.597006 2.74244 0.0221713 2.0828 0.591433 3.01239 3.04747 2.90595 3.84191 2.73737 1.09409 1.30119 2.49862 0.964383 3.6927 2.8205 3.53429
3053.29 1.30172 0.0736252 0.414028 1.20623 -0.326622 -0.878615 -0.782279 0.975498 -0.589505 0.192613 0.90442 3.98798 3.59397 2.99541 -0.216956 0.987911 2.10489 2.77703 1.75273 2.63573 0.572916 2.77094 3.2316 2.56062 0.918718 3.03499 2.315 2.84995 1.0446 0.945201 0.502615 2.88122 1.53478 1.7647 1.05951 0.294419 0.592224 2.77704 0.0223142 2.1108 0.603804 3.03974 3.08142 2.94377 3.8724 2.75744 1.094 1.3055 2.49843 0.964942 3.71389 2.84342 3.55639
3085.69 1.30285 0.075184 0.422062 1.20791 -0.326665 -0.877519 -0.781478 0.973423 -0.590556 0.193843 0.903192 3.97381 3.56112 2.97392 -0.2151 0.986619 2.09073 2.77759 1.76018 2.64231 0.575564 2.7638 3.23783 2.56687 0.92289 3.04145 2.31449 2.84128 1.05061 0.94727 0.503484 2.886 1.53564 1.76864 1.05952 0.29533 0.593696 2.78109 0.0210688 2.11375 0.602608 3.04901 3.08896 2.94759 3.87309 2.76632 1.09542 1.30731 2.49924 0.96614 3.70451 2.82733 3.54336
3113.46 1.27877 0.0684465 0.231732 1.17519 -0.338098 -0.886424 -0.831335 0.953048 -0.595067 0.179922 0.881558 3.86163 3.47446 2.90188 -0.220938 0.980952 1.95552 2.59237 1.58173 2.4506 0.557785 2.62969 3.01564 2.35536 0.759379 2.85117 2.25212 2.72416 0.860934 0.940022 0.448584 2.72622 1.48753 1.72712 1.03759 0.243624 0.585675 2.58688 0.000230123 2.00141 0.531862 2.8731 2.89934 2.77024 3.79148 2.63173 1.06945 1.27189 2.48667 0.94649 3.63181 2.70294 3.41974
3145.86 1.25313 0.0600327 0.0442475 1.14382 -0.350747 -0.896639 -0.876269 0.936946 -0.600127 0.164921 0.863384 3.7676 3.41066 2.85336 -0.228611 0.976802 1.83374 2.42273 1.40084 2.25631 0.537133 2.49842 2.78084 2.15227 0.605989 2.65698 2.19924 2.63892 0.669294 0.930377 0.401683 2.57301 1.44183 1.67692 1.01113 0.196714 0.576637 2.3974 -0.0171304 1.90539 0.469008 2.69428 2.71109 2.59853 3.73371 2.49438 1.04134 1.24206 2.47258 0.925156 3.58344 2.5914 3.31723
3178.26 1.23636 0.050919 -0.0439564 1.12756 -0.360963 -0.906829 -0.89684 0.925951 -0.604967 0.154465 0.851288 3.74023 3.39402 2.84591 -0.235935 0.971969 1.77796 2.3513 1.31543 2.16592 0.523111 2.4397 2.66081 2.05623 0.533917 2.56252 2.17423 2.61714 0.574073 0.922339 0.379884 2.50318 1.41798 1.65023 0.995128 0.175695 0.569393 2.30865 -0.0272632 1.8602 0.439899 2.60741 2.62282 2.52039 3.71732 2.42606 1.02571 1.22892 2.4614 0.912122 3.57098 2.54692 3.27904
3205.91 1.22515 0.0416381 -0.0871098 1.1159 -0.369239 -0.916294 -0.913414 0.916274 -0.614559 0.144692 0.84034 3.73244 3.40052 2.84596 -0.243707 0.962728 1.76214 2.3167 1.27418 2.12112 0.512496 2.40744 2.60532 2.01426 0.501079 2.51623 2.15717 2.61025 0.524594 0.914172 0.366455 2.46798 1.40148 1.63388 0.981302 0.159372 0.56098 2.26016 -0.0385475 1.8394 0.420771 2.56228 2.58246 2.48116 3.71506 2.39423 1.01681 1.21706 2.45129 0.898578 3.57314 2.54195 3.25946
3237.41 1.21707 0.0321469 -0.0897154 1.10851 -0.380211 -0.926523 -0.923835 0.903759 -0.628518 0.136236 0.830017 3.75202 3.42276 2.86251 -0.251999 0.950566 1.76371 2.31847 1.2733 2.11892 0.505362 2.398 2.60456 2.01243 0.494803 2.5154 2.15022 2.62906 0.525291 0.905926 0.357244 2.46492 1.39078 1.63066 0.971455 0.147515 0.549727 2.25745 -0.0528161 1.83615 0.41169 2.55808 2.58117 2.47765 3.72085 2.39323 1.00855 1.2041 2.43992 0.890674 3.58361 2.54532 3.27197
3268.91 1.20647 0.0239222 -0.128048 1.0965 -0.391423 -0.936661 -0.940854 0.893182 -0.637948 0.128017 0.821234 3.74587 3.43006 2.86822 -0.259102 0.943841 1.74253 2.28885 1.23674 2.08253 0.496007 2.38076 2.55826 1.97527 0.465622 2.47811 2.13695 2.62873 0.47891 0.898984 0.34158 2.4369 1.37708 1.61737 0.960071 0.137363 0.540685 2.22205 -0.0628539 1.81669 0.396677 2.52675 2.54587 2.44561 3.72318 2.36579 0.999568 1.19524 2.43236 0.882787 3.58293 2.54031 3.26968
3300.41 1.19882 0.0148344 -0.108826 1.09254 -0.402707 -0.946466 -0.945669 0.878847 -0.650437 0.121223 0.812399 3.77098 3.45638 2.89592 -0.266314 0.933901 1.7638 2.31104 1.25715 2.10794 0.491595 2.38699 2.58978 2.00481 0.478342 2.50278 2.13734 2.65838 0.49926 0.89182 0.336619 2.45496 1.37433 1.61996 0.954286 0.131127 0.529447 2.24329 -0.073539 1.82491 0.392264 2.548 2.56961 2.46295 3.75128 2.38222 0.990069 1.18345 2.42242 0.870497 3.61235 2.5629 3.29838
3331.91 1.19155 0.00681726 -0.106285 1.08506 -0.412359 -0.956477 -0.952166 0.872508 -0.656569 0.115099 0.805374 3.78959 3.47166 2.92339 -0.273925 0.929404 1.77113 2.31754 1.26187 2.11431 0.48416 2.38219 2.60052 2.01558 0.478028 2.51227 2.13383 2.68189 0.5034 0.884439 0.331943 2.45861 1.37329 1.61676 0.950201 0.123732 0.521938 2.24876 -0.0767615 1.82555 0.389142 2.54823 2.57652 2.4723 3.75878 2.38721 0.983454 1.18124 2.4171 0.863462 3.61807 2.56376 3.30608
3363.41 1.17828 -0.00123569 -0.174106 1.0725 -0.425142 -0.967576 -0.97382 0.859635 -0.668089 0.104755 0.789475 3.76552 3.47389 2.91858 -0.280717 0.921125 1.72857 2.25991 1.19803 2.04555 0.473332 2.33187 2.51155 1.94889 0.422025 2.44066 2.11151 2.65867 0.426468 0.876635 0.311649 2.40702 1.35243 1.59544 0.933763 0.100492 0.511472 2.18183 -0.0929504 1.79318 0.359937 2.48674 2.50979 2.41177 3.74751 2.33659 0.972086 1.16346 2.40385 0.851207 3.60217 2.53363 3.27889
3390.41 1.17344 -0.00542266 -0.181689 1.07024 -0.430905 -0.973266 -0.982072 0.849505 -0.676476 0.100466 0.780498 3.78108 3.4885 2.93116 -0.284588 0.91493 1.72906 2.25676 1.19642 2.04251 0.469537 2.32891 2.51025 1.94283 0.418724 2.43605 2.10623 2.67149 0.421738 0.87244 0.305696 2.40762 1.34653 1.59485 0.927075 0.0908018 0.504768 2.1778 -0.102368 1.79112 0.353954 2.48586 2.5083 2.40873 3.75639 2.33493 0.964692 1.15452 2.40036 0.844963 3.61625 2.53075 3.27892
3421.91 1.20221 -0.00348859 0.15825 1.11107 -0.424689 -0.969488 -0.906747 0.87382 -0.674556 0.119163 0.803669 3.97102 3.65424 3.06044 -0.282839 0.921191 1.97707 2.57644 1.5276 2.4097 0.497623 2.57416 2.95241 2.32542 0.693271 2.80502 2.2054 2.85484 0.770795 0.878334 0.38697 2.69888 1.43351 1.67931 0.973911 0.170247 0.510815 2.52926 -0.0701144 1.96766 0.465128 2.81759 2.85531 2.72981 3.85888 2.58354 0.995523 1.19973 2.4185 0.867726 3.7286 2.72494 3.4811
3453.41 1.19257 -0.00411088 0.0691998 1.09761 -0.426122 -0.970114 -0.92821 0.867404 -0.672963 0.11489 0.796838 3.9173 3.60688 3.02898 -0.282623 0.921517 1.91037 2.49039 1.4413 2.31763 0.49101 2.50291 2.84382 2.22733 0.618118 2.71398 2.1801 2.80644 0.682615 0.877728 0.362887 2.62252 1.41256 1.66079 0.964998 0.150333 0.512768 2.43398 -0.0767377 1.9201 0.434016 2.73129 2.76702 2.64695 3.83575 2.5225 0.984871 1.18882 2.4138 0.865447 3.69706 2.66349 3.41835
3484.91 1.17739 -0.00457085 -0.140259 1.07503 -0.429814 -0.972615 -0.971086 0.854473 -0.674574 0.105495 0.78413 3.81792 3.51093 2.95118 -0.281477 0.918456 1.7632 2.30039 1.24547 2.09774 0.476424 2.35908 2.57024 1.99606 0.452687 2.49275 2.12306 2.70438 0.46558 0.876471 0.320543 2.45383 1.36316 1.61358 0.937869 0.105188 0.51059 2.2257 -0.094274 1.82312 0.372333 2.5265 2.55804 2.45324 3.74902 2.37318 0.972952 1.16714 2.40894 0.855476 3.62571 2.55361 3.29961
3516.41 1.18271 -0.00107321 -0.0975156 1.08308 -0.425617 -0.967806 -0.958489 0.861578 -0.670562 0.1107 0.790068 3.82871 3.50091 2.95591 -0.278554 0.923028 1.78931 2.34252 1.28996 2.14784 0.484023 2.39862 2.63034 2.04054 0.490107 2.54131 2.14481 2.71169 0.513938 0.879853 0.337557 2.49779 1.37639 1.62721 0.946505 0.120794 0.514566 2.27289 -0.0843312 1.85135 0.392831 2.57172 2.60458 2.50031 3.76218 2.40346 0.979395 1.17705 2.41009 0.863416 3.63844 2.57323 3.3168
3547.91 1.1914 -0.000355753 0.00218248 1.09953 -0.421999 -0.965636 -0.93609 0.866707 -0.672599 0.116632 0.796095 3.88059 3.54867 2.98392 -0.276601 0.920458 1.86137 2.44043 1.39567 2.26702 0.495129 2.47751 2.76162 2.15749 0.576962 2.65531 2.17833 2.75813 0.619175 0.88335 0.363629 2.59048 1.40573 1.65796 0.961522 0.150496 0.515165 2.37963 -0.0766913 1.9077 0.428934 2.67202 2.71231 2.60335 3.79563 2.48026 0.989332 1.1959 2.41705 0.875013 3.67636 2.62168 3.376
3579.41 1.18795 0.00304253 -0.0682506 1.09043 -0.419051 -0.961791 -0.948147 0.86884 -0.66401 0.116237 0.797339 3.82217 3.50381 2.94773 -0.273738 0.928349 1.81371 2.3791 1.32577 2.19145 0.491465 2.4359 2.67023 2.07067 0.51922 2.57924 2.16898 2.7048 0.543462 0.885878 0.35246 2.533 1.39344 1.64108 0.956624 0.13804 0.521368 2.30759 -0.0738446 1.87189 0.412064 2.60354 2.64644 2.54031 3.7635 2.42986 0.987588 1.19196 2.41441 0.875877 3.6282 2.57744 3.32342
3606.41 1.19293 0.00673776 -0.117702 1.08994 -0.414527 -0.957406 -0.948358 0.875279 -0.659268 0.11877 0.801661 3.77558 3.461 2.90515 -0.268958 0.931344 1.76843 2.33958 1.28199 2.14302 0.492346 2.4055 2.60006 2.01226 0.487925 2.52755 2.16423 2.66349 0.493583 0.89062 0.353262 2.50365 1.39104 1.6362 0.956375 0.139518 0.528881 2.25971 -0.0672396 1.86011 0.408567 2.55606 2.59429 2.50468 3.74288 2.39444 0.994682 1.19744 2.42632 0.885884 3.6094 2.5473 3.28912
3637.91 1.19568 0.00887726 -0.0740694 1.09268 -0.413743 -0.954134 -0.943375 0.871612 -0.65863 0.120673 0.801085 3.78788 3.46023 2.91071 -0.267752 0.932555 1.80092 2.38401 1.32872 2.19822 0.496848 2.43998 2.66573 2.06508 0.526199 2.57977 2.1743 2.68649 0.540374 0.892851 0.36134 2.54641 1.39867 1.64776 0.962369 0.147062 0.531252 2.30984 -0.0648545 1.88221 0.421536 2.60199 2.64702 2.54732 3.75452 2.42646 1.00125 1.19746 2.42324 0.88223 3.60381 2.57324 3.30775
3669.41 1.19036 0.00534778 -0.207671 1.08083 -0.416938 -0.956479 -0.959029 0.87281 -0.660077 0.113981 0.796377 3.71868 3.39853 2.86354 -0.26932 0.929821 1.69143 2.24726 1.18359 2.03307 0.48183 2.34236 2.46836 1.89095 0.41296 2.41428 2.1364 2.60528 0.390239 0.889527 0.335063 2.4241 1.3644 1.60679 0.941753 0.12326 0.532773 2.15885 -0.0693936 1.8158 0.388064 2.46133 2.50317 2.41021 3.71322 2.32337 0.994034 1.19039 2.42658 0.884374 3.5719 2.49537 3.22361
3700.91 1.16875 0.00116024 -0.350698 1.0572 -0.424719 -0.96379 -0.996856 0.851491 -0.665296 0.100942 0.776406 3.65606 3.32388 2.80873 -0.274251 0.921565 1.57214 2.11023 1.0279 1.86057 0.463741 2.22466 2.25637 1.71166 0.284193 2.24014 2.0863 2.53307 0.214547 0.882759 0.289977 2.28333 1.31598 1.55102 0.910344 0.0756022 0.525166 2.00498 -0.0950779 1.74016 0.326707 2.30461 2.34085 2.26264 3.66929 2.21014 0.972537 1.15829 2.41233 0.865886 3.52513 2.40955 3.13988
3732.41 1.16824 -0.00615153 -0.376206 1.05286 -0.427798 -0.96629 -0.997305 0.853287 -0.671919 0.0966144 0.776784 3.64027 3.34195 2.80819 -0.278113 0.915935 1.55954 2.08542 0.998811 1.82871 0.456755 2.20802 2.20988 1.67906 0.264955 2.20379 2.08218 2.52135 0.17665 0.880103 0.295201 2.25969 1.31104 1.54332 0.905513 0.07893 0.526492 1.97837 -0.0899832 1.73124 0.324917 2.26752 2.30829 2.23606 3.65049 2.18621 0.972438 1.16781 2.41312 0.872945 3.52678 2.3966 3.13267
3763.91 1.15377 -0.0122074 -0.375121 1.04347 -0.438801 -0.9769 -1.01405 0.837266 -0.680905 0.0883582 0.761372 3.64367 3.32964 2.81121 -0.285174 0.907869 1.55179 2.08748 1.00047 1.83006 0.452658 2.1948 2.2262 1.68446 0.261709 2.21247 2.07031 2.53493 0.185218 0.874834 0.277199 2.25353 1.29771 1.53678 0.897418 0.0616541 0.513933 1.9813 -0.109138 1.72314 0.307006 2.2756 2.31685 2.23167 3.66323 2.18565 0.965793 1.14848 2.39678 0.853898 3.52675 2.39132 3.12661
3795.41 1.14837 -0.0143935 -0.40793 1.04033 -0.441824 -0.97977 -1.02531 0.830832 -0.68497 0.0844719 0.752924 3.63832 3.32825 2.80605 -0.287998 0.902691 1.53101 2.06082 0.969272 1.79701 0.444889 2.1715 2.18165 1.65517 0.235994 2.17637 2.06004 2.52503 0.147643 0.867906 0.263276 2.23103 1.28554 1.52677 0.883447 0.0471551 0.502533 1.94457 -0.120486 1.71151 0.292747 2.2426 2.28346 2.2057 3.65792 2.16695 0.95894 1.13576 2.38735 0.841037 3.51546 2.37243 3.11523
3822.41 1.1418 -0.0293387 -0.404761 1.03104 -0.452348 -0.987314 -1.02784 0.827532 -0.698319 0.0760607 0.74742 3.63512 3.35126 2.81207 -0.296891 0.890269 1.53239 2.0611 0.972961 1.79692 0.440986 2.17079 2.18186 1.65397 0.2397 2.1745 2.05857 2.53368 0.153501 0.862839 0.265618 2.2247 1.28277 1.52274 0.883343 0.0531586 0.507793 1.9489 -0.115836 1.71078 0.295959 2.24062 2.29088 2.20382 3.65239 2.16291 0.96278 1.13663 2.38971 0.846915 3.52423 2.38087 3.12479
3853.91 1.14054 -0.0376776 -0.396217 1.03517 -0.454061 -0.99111 -1.01887 0.829579 -0.704652 0.0736989 0.747433 3.66517 3.36337 2.81023 -0.301056 0.880955 1.54881 2.06343 0.978438 1.79852 0.43802 2.19215 2.18501 1.66709 0.2526 2.17664 2.05833 2.55599 0.163562 0.8585 0.276328 2.23317 1.28266 1.52365 0.881385 0.0639151 0.506992 1.95208 -0.113713 1.71988 0.308903 2.24549 2.28968 2.21369 3.68018 2.16962 0.978475 1.14538 2.39983 0.85749 3.54645 2.40231 3.1383
3885.41 1.13318 -0.0361716 -0.406903 1.02694 -0.458617 -0.994857 -1.03491 0.814101 -0.706978 0.0682461 0.737364 3.65979 3.36761 2.8124 -0.304033 0.878454 1.53935 2.0561 0.9715 1.78943 0.43299 2.16733 2.17866 1.65669 0.236507 2.17103 2.04622 2.55375 0.150953 0.85409 0.254218 2.21962 1.27141 1.51954 0.871791 0.0424779 0.493443 1.94402 -0.12948 1.70789 0.287793 2.24078 2.28732 2.19733 3.67199 2.16294 0.956767 1.12422 2.37699 0.838571 3.54608 2.39092 3.12926
3916.91 1.12775 -0.0390713 -0.396115 1.02659 -0.466264 -1.00003 -1.0415 0.808448 -0.714062 0.0642277 0.731248 3.66432 3.36065 2.81356 -0.308313 0.874493 1.54071 2.0679 0.981181 1.8048 0.428935 2.1726 2.20435 1.66595 0.241768 2.18842 2.04354 2.55224 0.166737 0.847867 0.248247 2.22769 1.26668 1.51904 0.86601 0.0359372 0.48404 1.95346 -0.140413 1.71061 0.284939 2.25303 2.29532 2.21334 3.66498 2.17511 0.949193 1.11371 2.37221 0.829699 3.5425 2.38026 3.13786
3948.41 1.12194 -0.0465004 -0.398166 1.02113 -0.469538 -1.00708 -1.04878 0.80056 -0.72022 0.0576426 0.725106 3.66917 3.36749 2.81166 -0.314425 0.865522 1.53586 2.06538 0.980747 1.80392 0.424098 2.17453 2.20571 1.67257 0.240304 2.18912 2.03801 2.56489 0.171903 0.842651 0.243446 2.22389 1.25917 1.51602 0.860251 0.030631 0.47814 1.95212 -0.14907 1.70747 0.27424 2.25482 2.29889 2.209 3.67122 2.17616 0.948117 1.10866 2.36045 0.828411 3.5538 2.38069 3.12313
3979.91 1.11646 -0.0511843 -0.380815 1.01749 -0.478988 -1.01193 -1.05296 0.791621 -0.72874 0.0539347 0.718224 3.679 3.3796 2.81605 -0.319051 0.859468 1.54871 2.08057 0.999159 1.82314 0.421504 2.18005 2.23463 1.69043 0.250569 2.21094 2.03264 2.57437 0.197336 0.837489 0.239031 2.23785 1.25579 1.51895 0.858321 0.0237421 0.469297 1.97054 -0.156661 1.70917 0.272875 2.27329 2.31484 2.22271 3.66574 2.18911 0.943167 1.10165 2.35752 0.81731 3.54797 2.39831 3.14888
3999.81 1.11308 -0.0555772 -0.37294 1.01619 -0.482124 -1.01635 -1.05692 0.788759 -0.734183 0.0512444 0.711676 3.68372 3.36882 2.82015 -0.322202 0.854166 1.55321 2.0851 1.0058 1.83238 0.419426 2.18617 2.24932 1.70098 0.257583 2.21942 2.03058 2.58545 0.206943 0.834307 0.23645 2.24113 1.25428 1.52006 0.855144 0.022127 0.465254 1.97357 -0.162461 1.71408 0.271335 2.28305 2.32377 2.2283 3.68657 2.19531 0.945488 1.09691 2.35041 0.815319 3.57241 2.40375 3.15773